stair.thisTrialN,stair.stepSize,stair.intensity,fixation.started,grating.started,key_resp.started,fixation.stopped,corrAns,tilt,key_resp.corr,stair.response,key_resp.rt,grating.stopped,participant,session,date,expName,psychopyVersion,frameRate,
0,2,10.0,33.96988690039143,34.48761059995741,34.48761059995741,34.50371489999816,left,-10.0,1,1,0.282137299887836,,2,001,2023-09-07_19h18.49.895,adaptive_staircase,2023.1.3,None,
1,2,8.0,34.78667820012197,35.26938940025866,35.26938940025866,35.287398600019515,right,8.0,1,1,0.30455389991402626,35.56977319996804,2,001,2023-09-07_19h18.49.895,adaptive_staircase,2023.1.3,None,
2,1,6.0,35.60218570008874,36.10291480040178,36.10291480040178,36.10291480040178,right,6.0,0,0,0.27908389968797565,36.40263150027022,2,001,2023-09-07_19h18.49.895,adaptive_staircase,2023.1.3,None,
3,1,7.0,36.40263150027022,36.90367679996416,36.90367679996416,36.90367679996416,left,-7.0,0,0,0.4890216002240777,37.20278519997373,2,001,2023-09-07_19h18.49.895,adaptive_staircase,2023.1.3,None,
4,1,8.0,37.42117700027302,37.90323289996013,37.90323289996013,37.93607230018824,right,8.0,1,1,0.51021539978683,38.203121799975634,2,001,2023-09-07_19h18.49.895,adaptive_staircase,2023.1.3,None,
5,1,8.0,38.436716000083834,38.93568420037627,38.93568420037627,38.93568420037627,right,8.0,1,1,0.4085800996981561,39.23619309999049,2,001,2023-09-07_19h18.49.895,adaptive_staircase,2023.1.3,None,
6,1,8.0,39.3698462001048,39.869115700013936,39.869115700013936,39.869115700013936,right,8.0,1,1,0.4209928996860981,40.16909880004823,2,001,2023-09-07_19h18.49.895,adaptive_staircase,2023.1.3,None,
7,1,7.0,40.32045440003276,40.801986700389534,40.801986700389534,40.83607850037515,right,7.0,1,1,0.35448809992522,41.10260120034218,2,001,2023-09-07_19h18.49.895,adaptive_staircase,2023.1.3,None,
8,1,7.0,41.18784800032154,41.6702459002845,41.6702459002845,41.68911140039563,left,-7.0,1,1,0.39542899979278445,41.96921889996156,2,001,2023-09-07_19h18.49.895,adaptive_staircase,2023.1.3,None,
9,1,7.0,42.088662300258875,42.569646700285375,42.569646700285375,42.60268820030615,right,7.0,1,1,0.37124509969726205,42.86979170003906,2,001,2023-09-07_19h18.49.895,adaptive_staircase,2023.1.3,None,
10,1,6.0,42.96946950023994,43.46868660021573,43.46868660021573,43.46868660021573,right,6.0,1,1,0.44612039998173714,43.768955199979246,2,001,2023-09-07_19h18.49.895,adaptive_staircase,2023.1.3,None,
11,1,6.0,43.93554940028116,44.436378800310194,44.436378800310194,44.436378800310194,right,6.0,1,1,0.44524329993873835,44.736151800025254,2,001,2023-09-07_19h18.49.895,adaptive_staircase,2023.1.3,None,
12,1,6.0,44.90287830028683,45.40298920031637,45.40298920031637,45.40298920031637,right,6.0,1,1,0.3961737002246082,45.7027765000239,2,001,2023-09-07_19h18.49.895,adaptive_staircase,2023.1.3,None,
13,1,5.0,45.82081359997392,46.30273010022938,46.30273010022938,46.335683500394225,right,5.0,1,1,0.39686420001089573,46.60220180032775,2,001,2023-09-07_19h18.49.895,adaptive_staircase,2023.1.3,None,
14,0.5,5.0,46.72087660012767,47.20281699998304,47.20281699998304,47.23614430008456,left,-5.0,0,0,0.3849999997764826,47.50226480001584,2,001,2023-09-07_19h18.49.895,adaptive_staircase,2023.1.3,None,
15,0.5,5.5,47.60268240002915,48.1025944002904,48.1025944002904,48.1025944002904,right,5.5,1,1,0.6177940997295082,48.402826900128275,2,001,2023-09-07_19h18.49.895,adaptive_staircase,2023.1.3,None,
16,0.5,5.5,48.736134100239724,49.23694560024887,49.23694560024887,49.23694560024887,right,5.5,0,0,1.5785986999981105,49.53588049998507,2,001,2023-09-07_19h18.49.895,adaptive_staircase,2023.1.3,None,
17,0.5,6.0,50.83699900005013,51.33607930038124,51.33607930038124,51.33607930038124,left,-6.0,1,1,0.5642755995504558,51.63577189994976,2,001,2023-09-07_19h18.49.895,adaptive_staircase,2023.1.3,None,
18,0.5,6.0,51.92100020032376,52.402688700240105,52.402688700240105,52.43574780039489,left,-6.0,1,1,0.35531320003792644,52.70278559997678,2,001,2023-09-07_19h18.49.895,adaptive_staircase,2023.1.3,None,
19,0.5,6.0,52.78710489999503,53.26974950032309,53.26974950032309,53.28821950033307,left,-6.0,1,1,0.41286659985780716,53.569828800391406,2,001,2023-09-07_19h18.49.895,adaptive_staircase,2023.1.3,None,
20,0.5,5.5,53.7030389001593,54.20253870030865,54.20253870030865,54.20253870030865,right,5.5,1,1,0.5655098999850452,54.50312789995223,2,001,2023-09-07_19h18.49.895,adaptive_staircase,2023.1.3,None,
21,0.5,5.5,54.78684760024771,55.269232999999076,55.269232999999076,55.287155700381845,right,5.5,1,1,0.5231665000319481,55.56994860013947,2,001,2023-09-07_19h18.49.895,adaptive_staircase,2023.1.3,None,
22,0.5,5.5,55.821678600274026,56.30260950000957,56.30260950000957,56.33537560002878,right,5.5,1,1,0.39052410004660487,56.60223980015144,2,001,2023-09-07_19h18.49.895,adaptive_staircase,2023.1.3,None,
23,0.5,5.0,56.72165390010923,57.20225700037554,57.20225700037554,57.23661800008267,right,5.0,1,1,0.6092059998773038,57.50237610004842,2,001,2023-09-07_19h18.49.895,adaptive_staircase,2023.1.3,None,
24,0.5,5.0,57.83642109995708,58.33650080021471,58.33650080021471,58.33650080021471,left,-5.0,1,1,0.37673209980130196,58.63641120027751,2,001,2023-09-07_19h18.49.895,adaptive_staircase,2023.1.3,None,
25,0.5,5.0,58.73525300016627,59.236374400090426,59.236374400090426,59.236374400090426,right,5.0,1,1,0.45774960005655885,59.5354472999461,2,001,2023-09-07_19h18.49.895,adaptive_staircase,2023.1.3,None,
26,0.5,4.5,59.720441800076514,60.2022901000455,60.2022901000455,60.236630599945784,left,-4.5,1,1,0.37098539993166924,60.502180099952966,2,001,2023-09-07_19h18.49.895,adaptive_staircase,2023.1.3,None,
27,0.5,4.5,60.60227880021557,61.102212900295854,61.102212900295854,61.102212900295854,left,-4.5,0,0,0.31647419976070523,61.402433400042355,2,001,2023-09-07_19h18.49.895,adaptive_staircase,2023.1.3,None,
28,0.5,5.0,61.43563860002905,61.93515110015869,61.93515110015869,61.93515110015869,left,-5.0,1,1,0.6593614998273551,62.23728170013055,2,001,2023-09-07_19h18.49.895,adaptive_staircase,2023.1.3,None,
29,0.5,5.0,62.62111940002069,63.10262190038338,63.10262190038338,63.1357150003314,right,5.0,0,0,0.4255087994970381,63.40235260035843,2,001,2023-09-07_19h18.49.895,adaptive_staircase,2023.1.3,None,
30,0.5,5.5,63.55463260039687,64.035113400314,64.035113400314,64.0701677002944,right,5.5,0,0,0.40843479987233877,64.33681790018454,2,001,2023-09-07_19h18.49.895,adaptive_staircase,2023.1.3,None,
31,0.5,6.0,64.46960790036246,64.96968660037965,64.96968660037965,64.96968660037965,right,6.0,1,1,0.29392819991335273,65.26964300032705,2,001,2023-09-07_19h18.49.895,adaptive_staircase,2023.1.3,None,
32,0.5,6.0,65.28769300039858,65.76997720031068,65.76997720031068,65.80262500001118,right,6.0,1,1,0.3159453999251127,66.0694322003983,2,001,2023-09-07_19h18.49.895,adaptive_staircase,2023.1.3,None,
33,0.5,6.0,66.10313560022041,66.60279670031741,66.60279670031741,66.60279670031741,left,-6.0,1,1,0.6310463999398053,66.90452240034938,2,001,2023-09-07_19h18.49.895,adaptive_staircase,2023.1.3,None,
34,0.5,5.5,67.25378999998793,67.73535370035097,67.73535370035097,67.7697065002285,right,5.5,1,1,0.33313729986548424,68.03550450038165,2,001,2023-09-07_19h18.49.895,adaptive_staircase,2023.1.3,None,
35,0.5,5.5,68.08721880009398,68.56956820003688,68.56956820003688,68.58785920031369,right,5.5,1,1,0.5938091999851167,68.86963960016146,2,001,2023-09-07_19h18.49.895,adaptive_staircase,2023.1.3,None,
36,0.5,5.5,69.18813520018011,69.66972979996353,69.66972979996353,69.70298820035532,right,5.5,1,1,0.4234036998823285,69.96966100018471,2,001,2023-09-07_19h18.49.895,adaptive_staircase,2023.1.3,None,
37,0.5,5.0,70.12055150000378,70.60267250007018,70.60267250007018,70.63572100037709,left,-5.0,1,1,0.44268300011754036,70.90460450015962,2,001,2023-09-07_19h18.49.895,adaptive_staircase,2023.1.3,None,
38,0.5,5.0,71.07002610014752,71.56981110014021,71.56981110014021,71.56981110014021,left,-5.0,0,0,0.35557670006528497,71.86917870026082,2,001,2023-09-07_19h18.49.895,adaptive_staircase,2023.1.3,None,
39,0.5,5.5,71.95476140035316,72.43606570037082,72.43606570037082,72.46950960019603,right,5.5,1,1,0.6376841999590397,72.73605399997905,2,001,2023-09-07_19h18.49.895,adaptive_staircase,2023.1.3,None,
40,0.5,5.5,73.10231300024316,73.6025566002354,73.6025566002354,73.6025566002354,right,5.5,1,1,0.5283150998875499,73.90322200022638,2,001,2023-09-07_19h18.49.895,adaptive_staircase,2023.1.3,None,
41,0.5,5.5,74.1543696001172,74.63633540039882,74.63633540039882,74.66959389997646,left,-5.5,1,1,0.34128859965130687,74.93565240036696,2,001,2023-09-07_19h18.49.895,adaptive_staircase,2023.1.3,None,
42,0.5,5.0,75.0024399003014,75.50219070026651,75.50219070026651,75.50219070026651,right,5.0,1,1,0.4825423997826874,75.80333280004561,2,001,2023-09-07_19h18.49.895,adaptive_staircase,2023.1.3,None,
43,0.5,5.0,76.0023392001167,76.50317110028118,76.50317110028118,76.50317110028118,left,-5.0,1,1,0.3180895000696182,76.80227570002899,2,001,2023-09-07_19h18.49.895,adaptive_staircase,2023.1.3,None,
44,0.5,5.0,76.8363096001558,77.33572430023924,77.33572430023924,77.33572430023924,right,5.0,1,1,0.38412969978526235,77.63565480010584,2,001,2023-09-07_19h18.49.895,adaptive_staircase,2023.1.3,None,
45,0.5,4.5,77.73527109995484,78.23676710017025,78.23676710017025,78.23676710017025,left,-4.5,1,1,0.31259019998833537,78.5354182003066,2,001,2023-09-07_19h18.49.895,adaptive_staircase,2023.1.3,None,
46,0.5,4.5,78.57014980027452,79.069180900231,79.069180900231,79.069180900231,left,-4.5,0,0,0.3741194000467658,79.37057390017435,2,001,2023-09-07_19h18.49.895,adaptive_staircase,2023.1.3,None,
47,0.5,5.0,79.47046280000359,79.96942780027166,79.96942780027166,79.96942780027166,right,5.0,1,1,0.7283910997211933,80.26904290029779,2,001,2023-09-07_19h18.49.895,adaptive_staircase,2023.1.3,None,
48,0.5,5.0,80.72096950002015,81.20328050013632,81.20328050013632,81.23588050017133,right,5.0,0,0,0.2968570999801159,81.50375939998776,2,001,2023-09-07_19h18.49.895,adaptive_staircase,2023.1.3,None,
49,0.5,5.5,81.52262150030583,82.02098730020225,82.02098730020225,82.03597850026563,right,5.5,1,1,0.5035346001386642,82.322636900004,2,001,2023-09-07_19h18.49.895,adaptive_staircase,2023.1.3,None,
